Folder: juliabase/remote_client

Note: README
Django-RefDB
============

Django-RefDB is a Web frontend for RefDB.  In other words, it is a reference
management tool, optimised for scientific references (papers/books).

It is in alpha stage, so don't use it productively.

See its homepage at <https://launchpad.net/django-refdb> and its documentation
at <http://www-users.rwth-aachen.de/torsten.bronger/django-refdb.html>.


LICENCE
=======

Django-RefDB is copyright 2009 Torsten Bronger and published under the terms of
the AGPL, see the file COPYING.

Django-RefDB uses some icons from the Silk Icons set created by Mark James, see
<http://www.famfamfam.com/lab/icons/silk/>.  Additionally, it uses flag icons
from the same author, see <http://www.famfamfam.com/lab/icons/flags/>.


AUTHOR
======

Torsten Bronger
mailto:bronger@physik.rwth-aachen.de
xmpp:torsten.bronger@jabber.rwth-aachen.de

File: raman_1.csv
1	16.3.10	"ACME"	"JH9279-7"	"JH9279-7c1"	"Eagle2000"	500,00	488	150	10	30,00	40,00	82,6%					"Corning 0.7mm"	647
2	16.3.10	"ACME"	"JH9328-11"	"JH9328-11c1"	"Eagle2000"	500,00	488	150	10	30,00	40,00	78,8%					"Corning rau"	413
3	16.3.10	"Ding"	"10c017"	"10c017c1"	"Corning 1.1mm"	500,00	488	150	10	30,00	40,00		"SiOx"				"Quarz"	752
4	16.3.10	"Ding"	"10c018"	"10c018c1"	"Corning 1.1mm"	500,00	488	150	10	30,00	40,00		"SiOx"				"Quarz rau"	"x"
5	16.3.10	"Ding"	"10c019"	"10c019c1"	"Corning 1.1mm"	500,00	488	150	10	30,00	40,00		"SiOx"				"ZnO"	"x"
6	16.3.10	"Ding"	"10c022"	"10c022c1"	"Corning 1.1mm"	500,00	488	150	10	30,00	40,00		"SiOx"				"ZnO geätzt"	"x"
7	16.3.10	"Ding"	"10c024"	"10c024c1"	"Corning 1.1mm"	500,00	488	150	10	30,00	40,00		"SiOx"				"Asai-U"	"x"
8	16.3.10	"Ding"	"10c025"	"10c025c1"	"Corning 1.1mm"	500,00	488	150	10	30,00	40,00		"SiOx"				"Si-Wafer"	"x"
9	16.3.10	"Ding"	"10c026"	"10c026c1"	"Corning 1.1mm"	500,00	488	150	10	30,00	40,00		"SiOx"				"Chrom"	"x"
10	18.3.10	"Xiao"	"10b098"	"10b098z1"	"ZnO"	668,00	647	200	10	30,00	30,00	86,4%					"Alu Folie"
11	18.3.10	"Xiao"	"10b098"	"10b098rc1"	"Corning rau"	668,00	647	200	10	30,00	30,00	79,3%					"Molydän Folie"
12	18.3.10	"Xiao"	"10b044"	"10b044a1"	"Alu Folie"	668,00	647	200	10	30,00	30,00	39,9%					"Floatglas"
13	18.3.10	"Xiao"	"10b044"	"10b044rc1"	"Corning rau"	668,00	647	200	10	30,00	30,00	2,6%					"Eagle2000"
14	19.3.10	"Grootoonk"	"10b058"	"10b058rc1"	"Corning rau"	500,00	488	150	10	30,00	30,00	60,5%
15	19.3.10	"Grootoonk"	"10b058"	"10b058c1"	"Corning 1.1mm"	500,00	488	150	10	30,00	30,00	77,7%					"x"
16	19.3.10	"Grootoonk"	"10b046"	"10b046rc1"	"Corning rau"	500,00	488	150	10	30,00	30,00	23,1%					"x"
17	19.3.10	"Grootoonk"	"10b046"	"10b046c1"	"Corning 1.1mm"	500,00	488	150	10	30,00	30,00	52,8%
18	19.3.10	"Grootoonk"	"10b072"	"10b072rc1"	"Corning rau"	500,00	488	150	10	30,00	30,00	0,0%
19	19.3.10	"Grootoonk"	"10b072"	"10b072c1"	"Corning 1.1mm"	500,00	488	150	10	30,00	30,00	0,0%
20	19.3.10	"Grootoonk"	"10b049"	"10b049rc1"	"Corning rau"	500,00	488	150	10	30,00	30,00	65,3%
21	19.3.10	"Grootoonk"	"10b049"	"10b049c2"	"Corning 1.1mm"	500,00	488	150	10	30,00	30,00	74,7%
22	19.3.10	"Grootoonk"	"10b103"	"10b103rc"	"Corning rau"	500,00	488	150	10	30,00	30,00	0,0%
23	19.3.10	"Grootoonk"	"10b103"	"10b103c1"	"Corning 1.1mm"	500,00	488	150	10	30,00	30,00	0,0%	" Sieht rau aus!"
24	19.3.10	"Grootoonk"	"10b055"	"10b055rc1"	"Corning rau"	500,00	488	150	10	30,00	30,00	1,0%
25	19.3.10	"Grootoonk"	"10b069"	"10b069c1"	"Corning 1.1mm"	500,00	488	150	10	30,00	30,00	72,2%
26	19.3.10	"Grootoonk"	"10b069"	"10b069rc1"	"Corning rau"	500,00	488	150	10	30,00	30,00	48,9%
27	19.3.10	"Grootoonk"	"10b110"	"10b110c1"	"Corning 1.1mm"	500,00	488	150	10	30,00	30,00	0,0%
28	19.3.10	"Grootoonk"	"10b110"	"10b110rc1"	"Corning rau"	500,00	488	150	10	30,00	30,00	0,0%
29	23.3.10	"Ding"	"10c028"	"10c028c1"	"Corning 1.1mm"	500,00	488	150	10	30,00	30,00		"SiOx"
30	23.3.10	"Ding"	"10c029"	"10c029c1"	"Corning 1.1mm"	500,00	488	150	10	30,00	30,00		"SiOx"
31	23.3.10	"Ding"	"10c030"	"10c030c1"	"Corning 1.1mm"	500,00	488	150	10	30,00	30,00		"SiOx"
32	23.3.10	"Ding"	"10c031"	"10c031c1"	"Corning 1.1mm"	500,00	488	150	10	30,00	30,00		"SiOx"
33	23.3.10	"Ding"	"10c032"	"10c032c1"	"Corning 1.1mm"	500,00	488	150	10	30,00	30,00		"SiOx"
34	23.3.10	"Ding"	"10c033"	"10c033c1"	"Corning 1.1mm"	500,00	488	150	10	30,00	30,00		"SiOx"
35	23.3.10	"Schulte"	"08L1240-1"	"08L1240-1_18-19"	"ZnO geätzt"	668,00	647	200	10	10,00	30,00	67,6%	"Zwischen Zelle 18 und 19"
36	23.3.10	"Schulte"	"08L1240-1"	"08L1240-1_29-30"	"ZnO geätzt"	668,00	647	200	10	10,00	30,00	65,0%	"Zwischen Zelle 29 und 30"
37	23.3.10	"Schulte"	"09L0010-2"	"09L0010-2_18-19"	"ZnO geätzt"	668,00	647	200	10	10,00	30,00	64,3%	"Zwischen Zelle 18 und 19"
38	23.3.10	"Schulte"	"09L0010-2"	"09L0010-2_5-6"	"ZnO geätzt"	668,00	647	200	10	10,00	30,00	67,4%	"Zwischen Zelle 5 und 6"
39	23.3.10	"Köhler"	"02C038"	"02C038c1"	"Corning 1.1mm"	668,00	647	200	10	20,00	30,00	66,7%	"Vergleich Kristallinität Raman-XRD"
40	23.3.10	"Köhler"	"01C341"	"01C341c1"	"Corning 1.1mm"	668,00	647	200	10	20,00	30,00	42,1%	"Vergleich Kristallinität Raman-XRD"
41	24.3.10	"Bosquet"	"10L0395-1-3"	"10L0395-1-3c1"	"Corning 1.1mm"	668,00	647	200	10	30,00	30,00	71,3%
42	24.3.10	"Bosquet"	"10L0395-2-2"	"10L0395-2-2t1"	"ZnO geätzt"	668,00	647	200	10	30,00	30,00	68,2%
43	24.3.10	"Bosquet"	"10L0395-1-2"	"10L0395-1-2t1"	"ZnO geätzt"	668,00	647	200	10	30,00	30,00	70,6%
44	24.3.10	"Bosquet"	"10L0395-3-1"	"10L0395-3-1t1"	"ZnO geätzt"	668,00	647	200	10	30,00	30,00	74,3%
45	24.3.10	"Bosquet"	"10L0395-4-2"	"10L0395-4-2t1"	"ZnO geätzt"	668,00	647	200	10	30,00	30,00	75,3%
46	24.3.10	"Bosquet"	"10L0395-2-1"	"10L0395-2-1c1"	"Corning 1.1mm"	668,00	647	200	10	30,00	30,00	64,4%
47	25.3.10	"Bosquet"	"10L0395-2-1"	"10L0395-2-1c2"	"Corning 1.1mm"	500,00	488	150	10	30,00	30,00	71,2%
48	25.3.10	"Bosquet"	"10L0395-4-2"	"10L0395-4-2t2"	"ZnO geätzt"	500,00	488	150	10	30,00	30,00	75,2%
49	25.3.10	"Bosquet"	"10L0395-3-1"	"10L0395-3-1t2"	"ZnO geätzt"	500,00	488	150	10	30,00	30,00	74,2%
50	25.3.10	"Bosquet"	"10L0395-1-2"	"10L0395-1-2t2"	"ZnO geätzt"	500,00	488	150	10	30,00	30,00	69,7%
51	25.3.10	"Bosquet"	"10L0395-2-2"	"10L0395-2-2t2"	"ZnO geätzt"	500,00	488	150	10	30,00	30,00	69,4%
52	25.3.10	"Bosquet"	"10L0395-1-3"	"10L0395-1-3c2"	"Corning 1.1mm"	500,00	488	150	10	30,00	30,00	69,5%
53	25.3.10	"Muthmann"	"10s128-1"	"10s128-1c1"	"Corning 1.1mm"	500,00	488	150	10	30,00	30,00	45,6%	"<p>"
54	25.3.10	"Muthmann"	"10s128-2"	"10s128-2c1"	"Corning 1.1mm"	500,00	488	150	10	30,00	30,00	47,9%	"<p>"
55	25.3.10	"Muthmann"	"10s128-3"	"10s128-3c1"	"Corning 1.1mm"	500,00	488	150	10	30,00	30,00	50,9%	"<p>"
56	25.3.10	"Muthmann"	"10s126-1"	"10s126-1c1"	"Corning 1.1mm"	500,00	488	150	10	30,00	30,00	56,6%	"<p>"
57	25.3.10	"Muthmann"	"10s126-2"	"10s126-2c1"	"Corning 1.1mm"	500,00	488	150	10	30,00	30,00	54,8%	"<p>"
58	25.3.10	"Muthmann"	"10s126-3"	"10s126-3c1"	"Corning 1.1mm"	500,00	488	150	10	30,00	30,00	56,2%	"<p>"
59	25.3.10	"Muthmann"	"10s130-1"	"10s130-1c1"	"Corning 1.1mm"	500,00	488	150	10	30,00	30,00	50,2%	"<p>"
60	25.3.10	"Muthmann"	"10s130-2"	"10s130-2c1"	"Corning 1.1mm"	500,00	488	150	10	30,00	30,00	46,7%	"<p>"
61	25.3.10	"Muthmann"	"10s130-3"	"10s130-3c1"	"Corning 1.1mm"	500,00	488	150	10	30,00	30,00	48,4%	"<p>"
62	25.3.10	"Muthmann"	"Corning"	"Cor250310"	"Corning 1.1mm"	500,00	488	150	10	30,00	30,00		"Corning Substrat"
63	29.3.10	"Bosquet"	"10L0395a-1-L"	"10L0395a-1-Ls1"	"Si-Wafer"	500,00	488	150	10	30,00	30,00	72,5%
64	29.3.10	"Bosquet"	"10L0395a-1-2"	"10L0395a-1-2s1"	"Si-Wafer"	500,00	488	150	10	30,00	30,00	73,1%
65	29.3.10	"Bosquet"	"10L0395a-1-3"	"10L0395a-1-3s1"	"Si-Wafer"	500,00	488	150	10	30,00	30,00	70,6%
66	29.3.10	"Bosquet"	"10L0395b-1-3"	"10L0395b-1-3s1"	"Si-Wafer"	500,00	488	150	10	30,00	30,00	70,5%
67	29.3.10	"Bosquet"	"10L0395a-2-2"	"10L0395a-2-2s1"	"Si-Wafer"	500,00	488	150	10	30,00	30,00	70,8%
68	30.3.10	"Bosquet"	"10L0395b-2-2"	"10L0395b-2-2s1"	"Si-Wafer"	500,00	488	150	10	30,00	30,00	72,1%
69	30.3.10	"Bosquet"	"10L0395a-2-1"	"10L0395a-2-1s1"	"Si-Wafer"	500,00	488	150	10	30,00	30,00	70,1%
70	30.3.10	"Bosquet"	"10L0395b-2-1"	"10L0395b-2-1s1"	"Si-Wafer"	500,00	488	150	10	30,00	30,00	70,7%
71	30.3.10	"Bosquet"	"10s142"	"10s142c1"	"Corning 1.1mm"	500,00	488	150	10	60,00	30,00	65,2%	"<p>"
72	30.3.10	"Bosquet"	"10s143"	"10s143c1"	"Corning 1.1mm"	500,00	488	150	10	60,00	30,00	74,6%	"<n> Sehr dünn ~10nm?"
73	30.3.10	"Bosquet"	"10s144"	"10s144c1"	"Corning 1.1mm"	500,00	488	150	10	60,00	30,00	80,8%
74	30.3.10	"Bosquet"	"Corning"	"Cor300310"	"Corning 1.1mm"	500,00	488	150	10	60,00	30,00		"Corning Substrat"
75	31.3.10	"ACME"	"jg0064-4"	"jg0064-4c1"	"Eagle2000"	500,00	488	150	10	60,00	30,00
76	31.3.10	"ACME"	"jh0049-1"	"jh0049-1c1"	"Eagle2000"	500,00	488	150	10	60,00	30,00
77	31.3.10	"Bosquet"	"10s146"	"10s146c1"	"Corning 1.1mm"	500,00	488	150	10	60,00	30,00	71,3%
78	31.3.10	"Schicho"	"10L0424…0425-2"	"10L0425-2t1"	"ZnO geätzt"	500,00	488	150	10	30,00	30,00	40,5%
79	31.3.10	"Schicho"	"10L0424…0425-3"	"10L0425-3t1"	"Corning 1.1mm"	500,00	488	150	10	30,00	30,00	39,3%
80	31.3.10	"Schicho"	"10L0424…0425-2"	"10L0425-2t2"	"ZnO geätzt"	668,00	647	200	10	30,00	30,00	2,2%
81	31.3.10	"Schicho"	"10L0424…0425-3"	"10L0425-3t2"	"Corning 1.1mm"	668,00	647	200	10	30,00	30,00	3,0%
82	1.4.10	"Ding"	"10c038"	"10c038c1"	"Corning 1.1mm"	500,00	488	150	10	30,00	30,00		"SiOx"
83	1.4.10	"Ding"	"10c041"	"10c041c1"	"Corning 1.1mm"	500,00	488	150	10	30,00	30,00		"SiOx"
84	1.4.10	"Ding"	"10c042"	"10c042c1"	"Corning 1.1mm"	500,00	488	150	10	30,00	30,00		"SiOx"
85	1.4.10	"Ding"	"10c043"	"10c043c1"	"Corning 1.1mm"	500,00	488	150	10	30,00	30,00		"SiOx"
86	1.4.10	"Bosquet"	"10s147"	"10s147c1"	"Corning 1.1mm"	500,00	488	150	10	60,00	30,00	70,6%
87	1.4.10	"Schulte"	"09L0010-2"	"09L0010-2ru1"	"ZnO geätzt"	500,00	488	150	10	30,00	30,00		"Rückseite ZnO Substrat"
88	1.4.10	"Schulte"	"09L0010-2"	"09L0010-2_18-19ru1"	"ZnO geätzt"	500,00	488	150	10	30,00	30,00	41,1%	"Rückseite zwischen Zelle 18 u. 19"
89	1.4.10	"Schulte"	"09L0010-2"	"09L0010-2_5-6ru1"	"ZnO geätzt"	500,00	488	150	10	30,00	30,00	42,3%	"Rückseite zwischen Zelle 5 u. 6"
90	1.4.10	"Schulte"	"08L1240-1"	"08L1240-1ru1"	"ZnO geätzt"	500,00	488	150	10	30,00	30,00		"Rückseite ZnO Substrat"
91	1.4.10	"Schulte"	"08L1240-1"	"08L1240-1_18-19ru1"	"ZnO geätzt"	500,00	488	150	10	30,00	30,00	50,6%	"Rückseite zwischen Zelle 18 u. 19"
92	1.4.10	"Schulte"	"08L1240-1"	"08L1240-1_29-30ru1"	"ZnO geätzt"	500,00	488	150	10	30,00	30,00	50,1%	"Rückseite zwischen Zelle 29 u. 30"
93	8.4.10	"Köhler"	"10L049-2"	"10L0492c"	"ZnO geätzt"	500,00	488	150	10	60,00	30,00	13,0%
94	8.4.10	"ACME"	"SL0074-19"	"SL0074-19c1"	"Eagle2000"	500,00	488	150	10	60,00	30,00
95	8.4.10	"ACME"	"JH0050-8"	"JH0050-8c1"	"Eagle2000"	500,00	488	150	10	30,00	30,00
96	8.4.10	"ACME"	"JH0050-5"	"JH0050-5c1"	"Eagle2000"	500,00	488	150	10	60,00	30,00
97	8.4.10	"ACME"	"SL0075-1"	"SL0075-1c1"	"Eagle2000"	500,00	488	150	10	30,00	30,00
98	8.4.10	"ACME"	"SL0077-12"	"SL0077-12c1"	"Eagle2000"	500,00	488	150	10	30,00	30,00
99	8.4.10	"ACME"	"SL0074-6"	"SL0074-6c1"	"Eagle2000"	500,00	488	150	10	30,00	30,00
100	12.4.10	"Bosquet"	"10L0446-1-2"	"10L0446-1-2t1"	"ZnO geätzt"	500,00	488	150	10	30,00	30,00	71,0%
101	12.4.10	"Bosquet"	"10L0446-1-3"	"10L0446-1-3c1"	"Corning 1.1mm"	500,00	488	150	10	30,00	30,00	69,0%
102	12.4.10	"Bosquet"	"10L0447-1-2"	"10L0447-1-2t1"	"ZnO geätzt"	500,00	488	150	10	30,00	30,00	80,3%
103	12.4.10	"Bosquet"	"10L0447-1-3"	"10L0447-1-3c1"	"Corning 1.1mm"	500,00	488	150	10	30,00	30,00	81,1%
104	13.4.10	"Bosquet"	"10L0449-1-2"	"10L0449-1-2t1"	"ZnO geätzt"	500,00	488	150	10	30,00	30,00	63,5%
105	13.4.10	"Bosquet"	"10L0449-1-3"	"10L0449-1-3c1"	"Corning 1.1mm"	500,00	488	150	10	30,00	30,00	64,0%
106	13.4.10	"Bosquet"	"10L0446-1-2"	"10L0446-1-2t2"	"ZnO geätzt"	668,00	647	200	10	30,00	30,00	74,7%
107	13.4.10	"Bosquet"	"10L0446-1-3"	"10L0446-1-3c2"	"Corning 1.1mm"	668,00	647	200	10	30,00	30,00	70,7%
108	13.4.10	"Bosquet"	"10L0447-1-2"	"10L0447-1-2t2"	"ZnO geätzt"	668,00	647	200	10	30,00	30,00	80,3%
109	13.4.10	"Bosquet"	"10L0447-1-3"	"10L0447-1-3c2"	"Corning 1.1mm"	668,00	647	200	10	30,00	30,00	80,5%
110	13.4.10	"Bosquet"	"10L0449-1-2"	"10L0449-1-2t2"	"ZnO geätzt"	668,00	647	200	10	30,00	30,00	66,5%
111	13.4.10	"Bosquet"	"10L0449-1-3"	"10L0449-1-3c2"	"Corning 1.1mm"	668,00	647	200	10	30,00	30,00	68,9%
112	14.4.10	"Bosquet"	"10L0452-1-2"	"10L0452-1-2t2"	"ZnO geätzt"	668,00	647	200	10	30,00	30,00	63,0%
113	14.4.10	"Bosquet"	"10L0452-1-3"	"10L0452-1-3c2"	"Corning 1.1mm"	668,00	647	200	10	30,00	30,00	67,2%
114	14.4.10	"Meier"	"10S170"	"10s170t1"	"ZnO geätzt"	668,00	647	200	10	30,00	30,00	53,9%
115	15.4.10	"Grootoonk"	"10B134"	"10B134-14t1"	"ZnO geätzt"	668,00	647	200	10	30,00	30,00	23,7%	"<pin> Neben Zelle 14"
116	15.4.10	"Grootoonk"	"10B134"	"10B134-05t1"	"ZnO geätzt"	668,00	647	200	10	30,00	30,00	51,3%	"<pin> Neben Zelle 5"
117	15.4.10	"Bosquet"	"10L0457-1-2"	"10L0457-1-2t1"	"ZnO geätzt"	668,00	647	200	10	30,00	35,00	40,3%
118	15.4.10	"Bosquet"	"10L0457-1-3"	"10L0457-1-3c1"	"Corning 1.1mm"	668,00	647	200	10	30,00	35,00	58,5%
119	15.4.10	"Bosquet"	"10L0459-1-2"	"10L0459-1-2t1"	"ZnO geätzt"	668,00	647	200	10	30,00	35,00	34,9%
120	15.4.10	"Bosquet"	"10L0459-1-3"	"10L0459-1-3c1"	"Corning 1.1mm"	668,00	647	200	10	30,00	35,00	37,7%
121	20.4.10	"Bosquet"	"10L0463-1-3"	"10L0463-1-3c1"	"Corning 1.1mm"	668,00	647	200	10	30,00	40,00	58,1%
122	20.4.10	"Bosquet"	"10L0463-1-2"	"10L0463-1-2t1"	"ZnO geätzt"	668,00	647	200	10	30,00	40,00	37,6%
123	20.4.10	"Bosquet"	"10L0460-1-2"	"10L0460-1-2t1"	"ZnO geätzt"	668,00	647	200	10	30,00	40,00	77,4%
124	20.4.10	"Bosquet"	"10L0460-1-2"	"10L0460-1-3c1"	"Corning 1.1mm"	668,00	647	200	10	30,00	40,00	78,2%
125	21.4.10	"Böttler"	"10b104"	"10b104st1"	"ZnO geätzt"	668,00	647	200	10	30,00	40,00	66,9%	"<nip>Silber + text. ZnO"
126	21.4.10	"Böttler"	"10b104"	"10b104t1"	"ZnO geätzt"	668,00	647	200	10	30,00	40,00	66,7%	"<nip>text. ZnO"
127	21.4.10	"Böttler"	"10b119"	"10b119st1"	"ZnO geätzt"	668,00	647	200	10	30,00	40,00	76,8%	"<nip>Silber + text. ZnO"
128	21.4.10	"Böttler"	"10b119"	"10b119t1"	"ZnO geätzt"	668,00	647	200	10	30,00	40,00	68,4%	"<nip>text. ZnO"
129	21.4.10	"Böttler"	"10b122"	"10b122st1"	"ZnO geätzt"	668,00	647	200	10	30,00	40,00	69,2%	"<nip>Silber + text. ZnO"
130	21.4.10	"Böttler"	"10b122"	"10b122t1"	"ZnO geätzt"	668,00	647	200	10	30,00	40,00	67,6%	"<nip>N996text. ZnO"
131	21.4.10	"Böttler"	"10b133"	"10b133st1"	"ZnO geätzt"	668,00	647	200	10	30,00	40,00	66,4%	"<nip>Silber + text. ZnO"
132	21.4.10	"Böttler"	"10b092"	"10b092st1"	"ZnO geätzt"	668,00	647	200	10	30,00	40,00	69,7%	"<nip>Silber + text. ZnO"
133	21.4.10	"Böttler"	"10b033"	"10b033st1"	"ZnO geätzt"	668,00	647	200	10	30,00	40,00	71,4%	"<nip>Silber + text. ZnO"
134	21.4.10	"Böttler"	"10b146"	"10b146st1"	"ZnO geätzt"	668,00	647	200	10	30,00	40,00	69,9%	"<nip>Silber + text. ZnO"
135	21.4.10	"Grootoonk"	"10b121"	"10b116-16t1"	"ZnO geätzt"	668,00	647	200	10	30,00	40,00	4,9%	"<pin> an Zelle 16"
136	21.4.10	"Grootoonk"	"10b121"	"10b121-3t1"	"ZnO geätzt"	668,00	647	200	10	30,00	40,00	20,0%	"<pin> an Zelle 3"
137	22.4.10	"Grootoonk"	"10b108"	"10b108-18t1"	"ZnO geätzt"	668,00	647	200	10	30,00	40,00	31,0%	"<pin> an Zelle 18"
138	22.4.10	"Grootoonk"	"10b108"	"10b109-6t1"	"ZnO geätzt"	668,00	647	200	10	30,00	40,00	68,3%	"<pin> an Zelle 6"
139	22.4.10	"Grootoonk"	"10b097"	"10b097-14t1"	"ZnO geätzt"	668,00	647	200	10	30,00	40,00	48,3%	"<pin> an Zelle 14"
140	22.4.10	"Grootoonk"	"10b097"	"10b095-4t1"	"ZnO geätzt"	668,00	647	200	10	30,00	40,00	44,0%	"<pin> an Zelle 4"
141	22.4.10	"Grootoonk"	"10b148"	"10b148-6t1"	"ZnO geätzt"	668,00	647	200	10	30,00	40,00	71,1%	"<pin> an Zelle 6"
142	22.4.10	"Sellmer"	"10c049"	"10c049c1"	"Corning 1.1mm"	668,00	647	200	10	30,00	40,00	80,0%
143	22.4.10	"Sellmer"	"10c048"	"10c048c1"	"Corning 1.1mm"	668,00	647	200	10	30,00	40,00	70,2%
144	22.4.10	"Sellmer"	"10c047"	"10c047c1"	"Corning 1.1mm"	668,00	647	200	10	30,00	40,00	60,7%
145	22.4.10	"Sellmer"	"10c046"	"10c046c1"	"Corning 1.1mm"	668,00	647	200	10	30,00	40,00	45,4%
146	26.4.10	"Schicho"	"08L-1215"	"08L-1215t1"	"ZnO geätzt"	500,00	488	150	13	30,00	40,00	84,8%
147	28.4.10	"Michard"	"10p065"	"10p065c1"	"Corning 1.1mm"	668,00	647	200	10	30,00	40,00	72,7%
148	28.4.10	"Michard"	"10p066"	"10p066c1"	"Corning 1.1mm"	668,00	647	200	10	30,00	40,00	27,1%
149	28.4.10	"Michard"	"10p067"	"10p067c1"	"Corning 1.1mm"	668,00	647	200	10	30,00	40,00	27,0%
150	29.4.10	"Wördenweber"	"10d103-1"	"10d103-1t1"	"ZnO geätzt"	668,00	647	200	10	30,00	35,00	7,7%	"<pin>Silber + text. ZnO"
151	29.4.10	"Wördenweber"	"10d085-5"	"10d085-5t1"	"ZnO geätzt"	668,00	647	200	10	30,00	35,00	60,0%	"<pin>Silber + text. ZnO"
152	29.4.10	"Wördenweber"	"10d085-1"	"10d085-1t1"	"ZnO geätzt"	668,00	647	200	10	30,00	35,00	62,8%	"<pin>Silber + text. ZnO"
153	29.4.10	"Wördenweber"	"10d050-5"	"10d050-5t1"	"ZnO geätzt"	668,00	647	200	10	30,00	35,00	57,2%	"<pin>Silber + text. ZnO"
154	29.4.10	"Wördenweber"	"10d111-1"	"10d111-1t1"	"ZnO geätzt"	668,00	647	200	10	30,00	35,00	48,8%	"<pin>Silber + text. ZnO"
155	29.4.10	"Wördenweber"	"10d103-5"	"10d103-5t1"	"ZnO geätzt"	668,00	647	200	10	30,00	35,00	21,4%	"<pin>Silber + text. ZnO"
156	29.4.10	"Renato"	"R290410_1"	"R290410_1a"	"Si-Wafer"	668,00	647	200	10	30,00	35,00		"SiGe"
157	29.4.10	"Renato"	"R290410_2"	"R290410_2a"	"Si-Wafer"	668,00	647	200	10	30,00	35,00		"SiGe"
158	29.4.10	"Renato"	"R290410_3"	"R290410_3a"	"Si-Wafer"	668,00	647	200	10	30,00	35,00		"SiGe"
159	29.4.10	"Renato"	"R290410_4"	"R290410_4a"	"Si-Wafer"	668,00	647	200	10	30,00	35,00		"SiGe"
160	29.4.10	"Renato"	"R290410_5"	"R290410_5a"	"Si-Wafer"	668,00	647	200	10	30,00	35,00		"SiGe"
161	30.4.10	"Renato"	"R290410_6"	"R290410_6a"	"Si-Wafer"	668,00	647	200	10	30,00	35,00		"SiGe"
162	30.4.10	"Renato"	"R290410_7"	"R290410_7a"	"Si-Wafer"	668,00	647	200	10	30,00	35,00		"SiGe"
163	30.4.10	"Renato"	"R290410_8"	"R290410_8a"	"Si-Wafer"	668,00	647	200	10	30,00	35,00		"SiGe"
164	30.4.10	"Renato"	"R290410_9"	"R290410_9a"	"Si-Wafer"	668,00	647	200	10	30,00	35,00		"SiGe"
165	30.4.10	"Renato"	"R290410_10"	"R290410_10a"	"Si-Wafer"	668,00	647	200	10	30,00	35,00		"SiGe"
166	6.5.10	"Renato"	"R290410_1"	"R290410_1b"	"Si-Wafer"	500,00	488	150	5	30,00	35,00		"SiGe"
167	6.5.10	"Renato"	"R290410_2"	"R290410_2b"	"Si-Wafer"	500,00	488	150	5	30,00	35,00		"SiGe"
[...]
1244	21.3.11	"Tsveti"	"11l-237-1"	"11l-237-1t1"	"ZnO geätzt"	668,00	647	150	5	30,00	1,50	82,0%	"Mit Mikroskop 50x Objektiv + Zyl. Linse Spott 20x2µm"
1245	21.3.11	"Tsveti"	"11l-238-1"	"11l-238-1t1"	"ZnO geätzt"	668,00	647	150	5	30,00	1,50	80,0%	"Mit Mikroskop 50x Objektiv + Zyl. Linse Spott 20x2µm"
1246	21.3.11	"Tsveti"	"11l-238-3-1"	"11l-238-3-1t1"	"ZnO geätzt"	668,00	647	150	5	30,00	1,50	80,4%	"Mit Mikroskop 50x Objektiv + Zyl. Linse Spott 20x2µm"
1247	21.3.11	"Tsveti"	"11l-238-3-2"	"11l-238-3-2t1"	"ZnO geätzt"	668,00	647	150	5	30,00	1,50	80,7%	"Mit Mikroskop 50x Objektiv + Zyl. Linse Spott 20x2µm"
1248	21.3.11	"Tsveti"	"11l-238-4-1"	"11l-238-4-1t1"	"ZnO geätzt"	668,00	647	150	5	30,00	1,50	80,8%	"Mit Mikroskop 50x Objektiv + Zyl. Linse Spott 20x2µm"
1249	21.3.11	"Tsveti"	"11l-238-4-2"	"11l-238-4-2t1"	"ZnO geätzt"	668,00	647	150	5	30,00	1,50	80,5%	"Mit Mikroskop 50x Objektiv + Zyl. Linse Spott 20x2µm"
1250	21.3.11	"Tsveti"	"10d-952-5"	"10d-952-5t1"	"ZnO geätzt"	668,00	647	150	5	30,00	1,50	61,3%	"Mit Mikroskop 50x Objektiv + Zyl. Linse Spott 20x2µm"
1251	21.3.11	"Tsveti"	"10d-504-5"	"10d-504-5t1"	"ZnO geätzt"	668,00	647	150	5	30,00	1,50	61,3%	"Mit Mikroskop 50x Objektiv + Zyl. Linse Spott 20x2µm"
1252	21.3.11	"Tsveti"	"10d-901-6"	"10d-901-6t1"	"ZnO geätzt"	668,00	647	150	5	30,00	1,50	59,6%	"Mit Mikroskop 50x Objektiv + Zyl. Linse Spott 20x2µm"
1253	21.3.11	"Tsveti"	"10d-755-6"	"10d-755-6t1"	"ZnO geätzt"	668,00	647	150	5	30,00	1,50	65,2%	"Mit Mikroskop 50x Objektiv + Zyl. Linse Spott 20x2µm"
1254	21.3.11	"Tsveti"	"10d-765-6"	"10d-765-6t1"	"ZnO geätzt"	668,00	647	150	5	30,00	1,50	65,5%	"Mit Mikroskop 50x Objektiv + Zyl. Linse Spott 20x2µm"
1255	21.3.11	"Tsveti"	"10d-920-5"	"10d-920-5t1"	"ZnO geätzt"	668,00	647	150	5	30,00	1,50	59,2%	"Mit Mikroskop 50x Objektiv + Zyl. Linse Spott 20x2µm"
1256	21.3.11	"Tsveti"	"10d-482-5"	"10d-482-5t1"	"ZnO geätzt"	668,00	647	150	5	30,00	1,50	58,5%	"Mit Mikroskop 50x Objektiv + Zyl. Linse Spott 20x2µm"
1257	21.3.11	"Tsveti"	"10d-438-9"	"10d-438-9t1"	"ZnO geätzt"	668,00	647	150	5	30,00	1,50	60,0%	"Mit Mikroskop 50x Objektiv + Zyl. Linse Spott 20x2µm"
1258	23.3.11	"Ding"	"11c-100"	"11c-100q3"	"Quarz"	500,00	488	150	5	30,00	1,00		"(50x + Zyl) ungetempert"
1259	23.3.11	"Ding"	"11c-101"	"11c-101q3"	"Quarz"	500,00	488	150	5	30,00	1,00		"(50x + Zyl) ungetempert"
1260	23.3.11	"Ding"	"11c-102"	"11c-102q3"	"Quarz"	500,00	488	150	5	30,00	1,00		"(50x + Zyl) ungetempert"
1261	23.3.11	"Ding"	"11c-103"	"11c-103q3"	"Quarz"	500,00	488	150	5	30,00	1,00		"(50x + Zyl) ungetempert"
1262	23.3.11	"Ding"	"11c-100"	"11c-100q1"	"Quarz"	500,00	488	150	5	30,00	1,00		"(50x + Zyl) getempert 4h 1000°c"
1263	23.3.11	"Ding"	"11c-101"	"11c-101q1"	"Quarz"	500,00	488	150	5	30,00	1,00		"(50x + Zyl) getempert 4h 1000°c"
1264	23.3.11	"Ding"	"11c-102"	"11c-102q1"	"Quarz"	500,00	488	150	5	30,00	1,00		"(50x + Zyl) getempert 4h 1000°c"
1265	23.3.11	"Ding"	"11c-103"	"11c-103q1"	"Quarz"	500,00	488	150	5	30,00	1,00		"(50x + Zyl) getempert 4h 1000°c"
1266	23.3.11	"Ding"	"11c-100"	"11c-100q2"	"Quarz"	500,00	488	150	5	30,00	1,00		"(50x + Zyl) getempert 4h 1000°c"
1267	23.3.11	"Ding"	"11c-101"	"11c-101q2"	"Quarz"	500,00	488	150	5	30,00	1,00		"(50x + Zyl) getempert 4h 1000°c"
1268	23.3.11	"Ding"	"11c-102"	"11c-102q2"	"Quarz"	500,00	488	150	5	30,00	1,00		"(50x + Zyl) getempert 4h 1000°c"
1269	23.3.11	"Ding"	"11c-103"	"11c-103q2"	"Quarz"	500,00	488	150	5	30,00	1,00		"(50x + Zyl) getempert 4h 1000°c"
1270	23.3.11	"Beyer"	"05s-366"	"05s-366s1"	"Si-Wafer"	500,00	488	150	5	30,00	1,00	74,2%	"(50x + Zyl)"
1271	23.3.11	"Beyer"	"05s-337"	"05s-337s1"	"Si-Wafer"	500,00	488	150	5	30,00	1,00	68,2%	"(50x + Zyl)"
1272	23.3.11	"Beyer"	"05s-336"	"05s-336s1"	"Si-Wafer"	500,00	488	150	5	30,00	1,00	70,4%	"(50x + Zyl)"
1273	23.3.11	"Beyer"	"05s-367"	"05s-367s1"	"Si-Wafer"	500,00	488	150	5	30,00	1,00	0,0%	"(50x + Zyl)"
1274	23.3.11	"Beyer"	"05s-361"	"05s-361s1"	"Si-Wafer"	500,00	488	150	5	30,00	1,00	38,0%	"(50x + Zyl)"
1275	23.3.11	"Lambertz"	"11b-108"	"11b-108c1"	"Corning 1.1mm"	500,00	488	150	5	30,00	1,00		"(50x + Zyl)"
1276	23.3.11	"Lambertz"	"11b-109"	"11b-109c1"	"Corning 1.1mm"	500,00	488	150	5	30,00	1,00		"(50x + Zyl)"
1277	23.3.11	"Lambertz"	"11b-111"	"11b-111c1"	"Corning 1.1mm"	500,00	488	150	5	30,00	1,00		"(50x + Zyl)"
1278	23.3.11	"Lambertz"	"11b-112"	"11b-112c1"	"Corning 1.1mm"	500,00	488	150	5	30,00	1,00		"(50x + Zyl)"
1279	23.3.11	"Lambertz"	"11b-113"	"11b-113c1"	"Corning 1.1mm"	500,00	488	150	5	30,00	1,00		"(50x + Zyl)"
1280	23.3.11	"Lambertz"	"11b-114"	"11b-114c1"	"Corning 1.1mm"	500,00	488	150	5	30,00	1,00		"(50x + Zyl)"
1281	23.3.11	"Lambertz"	"11b-115"	"11b-115c1"	"Corning 1.1mm"	500,00	488	150	5	30,00	1,00		"(50x + Zyl)"
1282	23.3.11	"Lambertz"	"11b-118"	"11b-118c1"	"Corning 1.1mm"	500,00	488	150	5	30,00	1,00		"(50x + Zyl)"
1283	23.3.11	"Lambertz"	"11b-119"	"11b-119c1"	"Corning 1.1mm"	500,00	488	150	5	30,00	1,00		"(50x + Zyl)"
1284	23.3.11	"Lambertz"	"11b-120"	"11b-120c1"	"Corning 1.1mm"	500,00	488	150	5	30,00	1,00		"(50x + Zyl)"
1285	23.3.11	"Lambertz"	"11b-121"	"11b-121c1"	"Corning 1.1mm"	500,00	488	150	5	30,00	1,00		"(50x + Zyl)"
1286	23.3.11	"Lambertz"	"11b-123"	"11b-123c1"	"Corning 1.1mm"	500,00	488	150	5	30,00	1,00		"(50x + Zyl)"
1287	24.3.11	"dagkaldiran"	"11l-199-1"	"11l-199-1c1"	"Corning 1.1mm"	500,00	488	150	5	30,00	1,00		"(50x + Zyl)"
1288	25.3.11	"Wördenweber"	"11d-387-5"	"11d-387-5t1"	"ZnO geätzt"	668,00	647	150	5	30,00	1,50	69,7%	"(50x + Zyl)"
1289	25.3.11	"Wördenweber"	"11d-387-1"	"11d-387-1t1"	"ZnO geätzt"	668,00	647	150	5	30,00	1,50	68,6%	"(50x + Zyl)"
1290	25.3.11	"Wördenweber"	"11d-411-1"	"11d-411-1t1"	"ZnO geätzt"	668,00	647	150	5	30,00	1,50	68,2%	"(50x + Zyl)"
1291	25.3.11	"Wördenweber"	"11d-411-5"	"11d-411-5t1"	"ZnO geätzt"	668,00	647	150	5	30,00	1,50	68,3%	"(50x + Zyl)"
1292	28.3.11	"Andriessen"	"11l-189-2"	"11l-189-2scan1"	"ZnO geätzt"	668,00	647	150	3	5,00	0,28		"50x Obj. großer aa durchs Glas Scann 30x20 2µm abst."
1293	28.3.11	"Köhler"	"06l-1037-3"	"06l-1037-3scan1"	"ZnO geätzt"	668,00	647	150	3	8,00	0,28		"50x Obj. großer aa durchs Glas Scann 30x10 2µm abst. Zelle19"
1294	30.3.11	"g.yilmaz"	"11c-114"	"11c-114c1"	"Corning 1.1mm"	668,00	647	150	5	30,00	1,50	42,7%	"(50x + Zyl)"
1295	30.3.11	"g.yilmaz"	"11c-097"	"11c-097c2"	"Corning 1.1mm"	668,00	647	150	5	30,00	1,50	33,0%	"(50x + Zyl)"
1296	30.3.11	"g.yilmaz"	"11c-099"	"11c-099c2"	"Corning 1.1mm"	668,00	647	150	5	30,00	1,50	19,1%	"(50x + Zyl)"
1297	30.3.11	"g.yilmaz"	"11c-098"	"11c-098c2"	"Corning 1.1mm"	668,00	647	150	5	30,00	1,50	35,6%	"(50x + Zyl)"
1298	30.3.11	"g.yilmaz"	"11c-099"	"11c-099rc1"	"Corning rau"	668,00	647	150	5	30,00	1,50	16,7%	"(50x + Zyl)"
1299	30.3.11	"Wördenweber"	"11d-456-5"	"11d-456-5t1"	"ZnO geätzt"	668,00	647	150	5	30,00	1,50	58,2%	"(50x + Zyl)"
1300	30.3.11	"Wördenweber"	"11d-456-1"	"11d-456-1t1"	"ZnO geätzt"	668,00	647	150	5	30,00	1,50	64,4%	"(50x + Zyl)"
1301	30.3.11	"Wördenweber"	"11d-435-5"	"11d-435-5t1"	"ZnO geätzt"	668,00	647	150	5	30,00	1,50	68,1%	"(50x + Zyl)"
1302	30.3.11	"Wördenweber"	"11d-435-1"	"11d-435-1t1"	"ZnO geätzt"	668,00	647	150	5	30,00	1,50	68,4%	"(50x + Zyl)"
1303	30.3.11	"Wördenweber"	"11l-114-2-1"	"11l-114-2-1t1"	"ZnO geätzt"	668,00	647	150	5	30,00	1,50	42,1%	"50x Obj. großer aa + zyl  durchs Glas"
1304	30.3.11	"Wördenweber"	"11l-114-3-1"	"11l-114-3-1t1"	"ZnO geätzt"	668,00	647	150	5	30,00	1,50	57,3%	"50x Obj. großer aa + zyl  durchs Glas"
1305	30.3.11	"Wördenweber"	"11l-114-1"	"11l-114-1t1"	"ZnO geätzt"	668,00	647	150	5	30,00	1,50	40,5%	"50x Obj. großer aa + zyl  durchs Glas"
1306	31.3.11	"Wördenweber"	"11l-114-2-2"	"11l-114-2-2t1"	"ZnO geätzt"	668,00	647	150	5	30,00	1,50	52,6%	"50x Obj. großer aa + zyl  durchs Glas"
1307	31.3.11	"Wördenweber"	"11l-114-4"	"11l-114-4t1"	"Floatglas"	668,00	647	150	5	60,00	1,50	56,3%	"50x Obj. großer aa + zyl  durchs Glas Dickes Floatglas?"
1308	31.3.11	"Wördenweber"	"11l-083-1"	"11l-083-1t1"	"ZnO geätzt"	668,00	647	150	5	30,00	1,50	63,0%	"50x Obj. großer aa + zyl  durchs Glas"
1309	31.3.11	"Wördenweber"	"11l-083-2-1"	"11l-083-2-1t1"	"ZnO geätzt"	668,00	647	150	5	30,00	1,50	63,0%	"50x Obj. großer aa + zyl  durchs Glas"
1310	31.3.11	"Wördenweber"	"11l-083-2-2"	"11l-083-2-2t1"	"ZnO geätzt"	668,00	647	150	5	30,00	1,50	66,5%	"50x Obj. großer aa + zyl  durchs Glas"
1311	31.3.11	"Wördenweber"	"11l-083-3-1"	"11l-083-3-1t1"	"ZnO geätzt"	668,00	647	150	5	30,00	1,50	67,1%	"50x Obj. großer aa + zyl  durchs Glas"
1312	31.3.11	"Wördenweber"	"11l-083-4"	"11l-083-4t1"	"Floatglas"	668,00	647	150	5	60,00	1,50	66,7%	"50x Obj. großer aa + zyl  durchs Glas Dickes Floatglas?"